Folder: ChemBoMAS

Note: BAYBE_MIGRATION_GUIDE.md
# BayBE 迁移实施指南

## 概述
本文档为从 EDBO+ 迁移到 BayBE 提供详细的技术指南和实施路线图。

---

## BayBE 技术调研

### 项目信息
- **GitHub**: https://github.com/emdgroup/baybe
- **文档**: https://emdgroup.github.io/baybe/
- **开发商**: EMD Group (默克集团)
- **许可证**: Apache 2.0

### 核心特性
1. **现代化架构**: 基于 PyTorch 和 BoTorch
2. **多目标优化**: 原生支持多目标贝叶斯优化
3. **灵活约束**: 支持线性和非线性约束
4. **丰富的获取函数**: qEI, qNEI, qPI, qUCB 等
5. **参数类型多样**: 连续、离散、分类参数
6. **实验设计**: 支持 DoE 和主动学习

---

## EDBO+ vs BayBE 对比分析

| 特性 | EDBO+ | BayBE | 迁移影响 |
|------|-------|-------|----------|
| 基础框架 | 自定义 | PyTorch/BoTorch | 需要重写核心逻辑 |
| 多目标优化 | 支持 | 原生支持 | 更好的多目标处理 |
| 约束处理 | 基础 | 高级 | 需要约束重新定义 |
| 参数类型 | 有限 | 丰富 | 更灵活的参数定义 |
| 社区支持 | 较少 | 活跃 | 更好的长期维护 |
| 学习曲线 | 中等 | 中等 | 需要团队培训 |

---

## 迁移技术实现

### 1. BayBE 环境配置

#### 安装依赖
```bash
# 添加到 requirements.txt
baybe
torch
botorch
gpytorch
```

#### 基础配置检查
```python
def check_baybe_installation():
    """验证 BayBE 安装和配置"""
    try:
        import baybe
        from baybe import Campaign
        print(f"BayBE 版本: {baybe.__version__}")
        return True
    except ImportError as e:
        print(f"BayBE 安装失败: {e}")
        return False
```

### 2. 参数转换模块

#### EDBO+ 到 BayBE 参数映射
```python
from baybe.parameters import (
    NumericalContinuousParameter,
    NumericalDiscreteParameter, 
    CategoricalParameter
)
from baybe.constraints import LinearConstraint
from baybe.objectives import NumericalTarget

class ParameterConverter:
    """EDBO+ 参数格式转换为 BayBE 格式"""
    
    def __init__(self):
        self.parameter_mapping = {
            'continuous': NumericalContinuousParameter,
            'discrete': NumericalDiscreteParameter,
            'categorical': CategoricalParameter
        }
    
    def convert_parameters(self, edbo_config: dict) -> list:
        """转换参数定义"""
        baybe_parameters = []
        
        for param in edbo_config.get('parameters', []):
            param_name = param['name']
            param_type = param['type']
            
            if param_type == 'continuous':
                baybe_param = NumericalContinuousParameter(
                    name=param_name,
                    bounds=param['bounds'],
                    tolerance=param.get('tolerance', 0.01)
                )
            elif param_type == 'categorical':
                baybe_param = CategoricalParameter(
                    name=param_name,
                    values=param['values'],
                    encoding=param.get('encoding', 'OHE')
                )
            elif param_type == 'discrete':
                baybe_param = NumericalDiscreteParameter(
                    name=param_name,
                    values=param['values'],
                    tolerance=param.get('tolerance', 0.01)
                )
            
            baybe_parameters.append(baybe_param)
        
        return baybe_parameters
    
    def convert_objectives(self, edbo_config: dict) -> list:
        """转换目标函数定义"""
        baybe_objectives = []
        
        for obj in edbo_config.get('objecti

Note: ChemBoMAS_说明文档.md
# ChemBoMAS 说明文档

## App简介

ChemBoMAS (Chemical Bayesian Optimization Multi-Agent System) 是一个基于Google Agent Development Kit (ADK) 和BayBE贝叶斯优化框架构建的智能化学实验优化系统。该系统通过多智能体协作，实现从数据验证、实验推荐、结果分析到持续优化的完整闭环工作流程。

### 开发背景

在化学实验优化领域，传统的实验设计方法往往需要大量的试错实验，成本高、周期长。随着人工智能和贝叶斯优化技术的发展，智能化的实验设计成为可能。ChemBoMAS应运而生，旨在：

1. **降低实验成本**：通过贝叶斯优化算法，以最少的实验次数找到最优条件
2. **提高优化效率**：利用多智能体系统实现自动化的实验设计和结果分析
3. **简化操作流程**：提供友好的交互界面，降低使用门槛
4. **集成领域知识**：内置化学知识库，提供专业的参数建议和安全约束

### 应用能力

ChemBoMAS系统具备以下核心能力：

1. **智能数据验证**：自动验证实验数据的完整性和SMILES分子结构的有效性
2. **参数智能建议**：基于化学知识库，为实验参数提供合理的边界建议
3. **贝叶斯优化推荐**：使用BayBE框架进行高效的实验条件推荐
4. **多目标优化**：支持单目标、多目标和帕累托前沿优化
5. **迭代优化管理**：自动管理多轮实验的迭代优化流程
6. **结果分析与可视化**：提供模型性能分析和专业图表生成
7. **收敛分析与阶段建议**：基于优化进展给出阶段性建议与停止提示

系统特别适用于：
- 环氧固化反应优化
- 聚合反应条件优化
- 催化合成反应优化
- 材料配方优化
- 工艺参数优化

---

## 最佳实践

### Example 1: 环氧固化反应优化

**场景描述**：优化环氧树脂固化反应，目标是同时提高玻璃化转变温度(Tg)和冲击强度。

**输入**：
```csv
SubstanceA_name,SubstanceA_SMILE,SubstanceA_ratio,SubstanceB_name,SubstanceB_SMILE,SubstanceB_ratio,Target_alpha_tg,Target_beta_impactstrength
南亚127e,CC(C)(C1=CC=C(C=C1)OCC2CO2)C3=CC=C(C=C3)OCC4CO4,0.6,固化剂1,5胺类,NCCCCCN,0.3,80,110
南亚127e,CC(C)(C1=CC=C(C=C1)OCC2CO2)C3=CC=C(C=C3)OCC4CO4,0.7,固化剂1,5胺类,NCCCCCN,0.2,90,100
南亚127e,CC(C)(C1=CC=C(C=C1)OCC2CO2)C3=CC=C(C=C3)OCC4CO4,0.8,固化剂1,5胺类,NCCCCCN,0.1,60,120
```

**操作流程**：
1. 上传初始实验数据CSV文件
2. 系统自动验证数据质量和SMILES有效性
3. 系统基于化学知识库提供参数边界建议（如：固化剂比例范围0.1-0.4，温度范围60-120°C）
4. 用户确认优化目标：最大化Tg和冲击强度
5. 系统生成第一轮实验推荐（5个实验条件）

**输出**：
```
推荐实验条件（第1轮）：
实验1: SubstanceA_ratio=0.65, SubstanceB_ratio=0.25, 预期Tg=85°C, 预期冲击强度=115
实验2: SubstanceA_ratio=0.70, SubstanceB_ratio=0.20, 预期Tg=88°C, 预期冲击强度=105
实验3: SubstanceA_ratio=0.75, SubstanceB_ratio=0.15, 预期Tg=75°C, 预期冲击强度=125
实验4: SubstanceA_ratio=0.60, SubstanceB_ratio=0.30, 预期Tg=82°C, 预期冲击强度=108
实验5: SubstanceA_ratio=0.68, SubstanceB_ratio=0.22, 预期Tg=87°C, 预期冲击强度=112

已生成结果模板文件: result_template_xxx.csv
请按照推荐条件进行实验，并填写测量结果。
```

**后续迭代**：
- 用户完成实验并上传结果
- 系统自动更新BayBE Campaign
- 生成下一轮推荐（基于新数据优化）
- 持续迭代直到收敛或达到目标

---

### Example 2: 多目标帕累托优化

**场景描述**：优化材料配方，需要平衡性能（最大化）和成本（最小化）两个冲突目标。

**输入**：
```csv
SubstanceA_name,SubstanceA_SMILE,SubstanceA_ratio,SubstanceB_name,SubstanceB_SMILE,SubstanceB_ratio,Target_performance,Target_cost
材料A,CC(C)O,0.5,材料B,NCCCN,0.5,85.0,25.5
材料A,CC(C)O,0.6,材料B,NCCCN,0.4,90.0,28.0
材料A,CC(C)O,0.7,材料B,NCCCN,0.3,88.0,30.5
```

**操作流程**：
1. 上传数据并设置多目标优化模式
2. 配置优化目标：
   - 目标1：性能（MAX，权重0.6）
   - 目标2：成本（MIN，权重0.4）
3. 选择帕累托优化策略
4. 系统生成推荐

**输出**：
```
帕累托前沿分析：
已识别3个帕累托最优解：

解1（高性能）：SubstanceA_ratio=0.72, SubstanceB_ratio=0.28
  - 预测性能: 92.5
  - 预测成本: 32.0
  - 权衡评分: 0.68

解2（平衡）：SubstanceA_ratio=0.65, SubstanceB_ratio=0.35
  - 预测性能: 89.0
  - 预测成本: 28.5
  - 权衡评分: 0.72

解3（低成本）：SubstanceA_ratio=0.58, SubstanceB_ratio=0.42
  - 预测性能: 86.5
  - 预测成本: 26.0
  - 权衡评分: 0.75

推荐实验：解2（平衡方案），在性能和成本之间取得最佳平衡。
```

---

### Example 3: 特殊物质处理（无SMILES的稀释剂）

**场景描述**：配方中包含无法用SMILES表示的稀释剂或专有添加剂，需要系统智能处理。

**输入**：
```csv
SubstanceA_name,SubstanceA_SMILE,SubstanceA_ratio,SubstanceB_name,SubstanceB_SMILE,SubstanceB_ratio,

Note: THIRD_PARTY_NOTICES.md
# Third-Party Notices

This project includes components under additional open source licenses. The following third-party licenses apply to specific files or directories as noted.

## Apache License 2.0

Portions of this project contain code and headers originating from Google LLC and other Apache-2.0 licensed sources. These files retain their original Apache-2.0 license headers.

License text:
- https://www.apache.org/licenses/LICENSE-2.0

## MIT License

The `edbo` package and its packaging metadata include MIT license notices and attribution.

License text:
- https://opensource.org/licenses/MIT

File: RAWEpoxyCureResult-share2-REVISED.csv
DEGABA,Curing agent,"Curing Agent (SMILE)	","Curing Agent Loading Ratio (%)	",,,"Curing Agent CAS No.	","Curing Agent Monomer Viscosity (mPa·s @ 20°C)	","1mm Thin-Layer Curing Time (min)	","Blushing in 1mm Thin Layer (Yes/No)	","DSC Reaction - Onset Temperature	","DSC Reaction - Peak Temperature	","DSC Reaction - Exothermic Peak	","DSC Reaction - Half-Peak Width	","Exothermic Time (min) @ 25°C (100g)	",Exothermic Temperature @ 25°C (100g),Glass Transition Temp (Tg) @ 25°C Cure,Fully Cured Tg,Cast Plate Tg (Reference for Hygrothermal Aging),Tg After 250h 85°C/85% RH Aging (Dried),"Tg After 500h 85°C/85% RH Aging (Dried)	","Tensile Strength (MPa)	","Tensile Modulus (MPa)	","Elongation at Break (%)	","Impact Strength	"
CC(C)(C1=CC=C(C=C1)OCC2CO2)C3=CC=C(C=C3)OCC4CO4,N-氨乙基哌嗪（AEP）,NCCN1CCNCC1,24,,,140-31-8,14,165,1,11,93,524.9,50,25,250,104,123,112,120,113,68.1,2363.6,12.2,65.2
CC(C)(C1=CC=C(C=C1)OCC2CO2)C3=CC=C(C=C3)OCC4CO4,ECX210（甲基环己二胺）HTDA,NC1CC(N)C(C)CC1,18,,,13897-55-7,7.3,480,1,49,120,478.6,54,239,146,51,177,159,170,167,72.6,2742.2,3.6,12.1
CC(C)(C1=CC=C(C=C1)OCC2CO2)C3=CC=C(C=C3)OCC4CO4,IPDA（异弗尔酮二胺）,NC1CC(C)(CN)CC(C)(C)C1,23.5,,,2855-13-2,22,369,0,50,117,482.4,53,151,192,53,168,158,165,162,74.7,2625.9,5,22.9
CC(C)(C1=CC=C(C=C1)OCC2CO2)C3=CC=C(C=C3)OCC4CO4,"PACM（业旭）4,4'-methylenebis (cyclohexylamine)	",NC1CCC(CC2CCC(N)CC2)CC1,29,,,1761-71-3,156,375,0,54,118,474.1,47,178,186,54,174,162,168,167,63,2388,4.6,12.5
CC(C)(C1=CC=C(C=C1)OCC2CO2)C3=CC=C(C=C3)OCC4CO4,MACM（EC331）（雅瑞）BASFLaromin® C 260,NC1C(C)CC(CC2CC(C)C(N)CC2)CC1,33,,,6864-37-5,172,666,0,58, ,438.5,46,502,40,52,185,165,173,172,67.3,2614.2,4.1,9.7
CC(C)(C1=CC=C(C=C1)OCC2CO2)C3=CC=C(C=C3)OCC4CO4,DETA（二乙烯三胺）,NCCNCCN,11,,,111-40-0,6.4,210,1,25,102,621.3,35,43,254,55,135,129,142,126,63.5,2547.2,3.9,11.9
CC(C)(C1=CC=C(C=C1)OCC2CO2)C3=CC=C(C=C3)OCC4CO4,三甲基己二胺TMD 赢创VESTAMIN TMD,NCC(C)(CC(CCN)C)C,22,,,25513-64-8 ,5.6,264,1,29,110,518.5,36,72,232,55,121,115,118,117,67.4,2293.5,9.1,34
CC(C)(C1=CC=C(C=C1)OCC2CO2)C3=CC=C(C=C3)OCC4CO4,双六甲基三胺BHTA/BHMT （固）,NCCCCCCNCCCCCCN,24,,,143-23-7  ,室温为固体,228,1,38,110,513.3,35,61,227,54,107,105,109,110,46.9,2089.8,3,17.2
CC(C)(C1=CC=C(C=C1)OCC2CO2)C3=CC=C(C=C3)OCC4CO4,MXDA（间苯二甲胺）,NCC1=CC=CC(CN)=C1,19,,,1477-55-0,6.8,321,1,47,115,539.1,33,81,247,50,130,123,128,120,74.4,2637.1,5.4,30.3
CC(C)(C1=CC=C(C=C1)OCC2CO2)C3=CC=C(C=C3)OCC4CO4,DMAPAPA N-N-二甲基二甲基三胺（DMDPTA，DMAPAPA）N-N-Dimethyldipropylene triamine,CN(CCCNCCCN)C,29,,,10563-29-8,9.2,144,0,48,102,466.2,23,63,222,56,71,48,48,62,62.9,2995.9,10.1,42.1
CC(C)(C1=CC=C(C=C1)OCC2CO2)C3=CC=C(C=C3)OCC4CO4,"N4（N,N'-二(3-氨丙基)乙基乙胺）solvay RHODOLINE HD N4 N,N'-BIS(3-AMINOPROPYL)-1,2-ETHYLENEDIAMINE",NCCCNCCNCCCN,16,,,10563-26-5,,213,1,23,103,554,39,42,244,58,124,130,140,123,58.1,2441.5,4.2,13.6
CC(C)(C1=CC=C(C=C1)OCC2CO2)C3=CC=C(C=C3)OCC4CO4,"EC130（4,7,10-三氧-1,13-十三烷二胺）Baxxodur® EC 130",NCCCOCCOCCOCCCN,30,,,4246-51-9,13,255,1,31,110,521.2,38,79,220,50,78,73,81,81,54.9,2343.7,8,66.1
CC(C)(C1=CC=C(C=C1)OCC2CO2)C3=CC=C(C=C3)OCC4CO4,"1,4-双(3-氨基丙基)哌嗪",NCCCN1CCN(CCCN)CC1,27.62,,,7209-38-3,56,204,1,36,109,472.6,35,77,232,54,114,107,110,109,67.8,2281.6,11,51.2
CC(C)(C1=CC=C(C=C1)OCC2CO2)C3=CC=C(C=C3)OCC4CO4,1，2环己二胺 ,NC1C(N)CCCC1,15.75,,,694-83-7,7.7,462,1,40,115,515.8,38,151,203,52,191,169,175,175,73.7,2872.3,3.6,20.6
CC(C)(C1=CC=C(C=C1)OCC2CO2)C3=CC=C(C=C3)OCC4CO4,"1,3双氨甲基环己烷（MXDA氢化）（1，3BAC)（三菱瓦斯）",NCC1CC(CN)CCC1,19.61,,,2579-20-6,9.1,179,1,36,108,556.9,36,65,232,54,151,154,145,142,72.4,2597,4.5,23.6
CC(C)(C1=CC=C(C=C1)OCC2CO2)C3=CC=C(C=C3)OCC4CO4,三乙烯四胺 TETA,NCCNCCNCCN,13.43,,,112-24-3,29,206,1,26,104,518.1,41,49,236,56,131,128,129,125,74.6,2491.3,6.5,20.4
CC(C)(C1=CC=C(C=C1)OCC2CO2)C3=CC=C(C=C3)OCC4CO4,四乙烯五胺 TEPA,NCCNCCNCCNCCN,14.92,,,112-57-2,113,207,1,33,105,522,40,51,232,53,127,125,130,126,74.6,2720.1,4.8,14.2
CC(C)(C1=CC=C(C=C1)OCC2CO2)C3=CC=C(C=C3)OCC4CO4,五乙烯六胺 PEHA,NCCNCCNCCNCCNCCN,16.02,,,4067-16-7,207,211,1,36,107,488,39,55,215,53,128,125,131,127,73.9,2641.3,4.7,12.9
CC(C)(C1=CC=C(C=C1)OCC2CO2)C3=CC=C(C=C3)OCC4CO4,N-(3-氨丙基)环己胺,NCCCNC1CCCCC1,28.73,,,3312-60-5,,360,1,28,117,520.1,40,144,196,47,96,94,98,93,68.1,2603,12.9,70.6
CC(C)(C1=CC=C(C=C1)OCC2CO2)C3=CC=C(C=C3)OCC4CO4,N-(2-羟乙基)乙二胺,OCCNCCN,19.17,,,111-41-1,149,156,1,18,92,517.5,39,20,244,96,100,96,105,105,68.4,2428.1,13.9,57.6
CC(C)(C1=CC=C(C=C1)OCC2CO2)C3=CC=C(C=C3)OCC4CO4,1，4-丁二胺,NCCCCN,12.15,,,110-60-1,室温为固体,177,1,30,102,555.6,33,46,258,98,114,121,121,120,66.8,2133.7,6.2,19.1
CC(C)(C1=CC=C(C=C1)OCC2CO2)C3=CC=C(C=C3)OCC4CO4,"1,6-己二胺",NCCCCCCN,16.02,,,124-09-4,室温为固体,188,1,35,105,524.1,33,53,244,57,106,126,119,117,56.7,2011.4,4.6,21.2
CC(C)(C1=CC=C(C=C1)OCC2CO2)C3=CC=C(C=C3)OCC4CO4,三(2-氨基乙基)胺,NCCN(CCN)CCN,13.43,,,4097-89-6,,,,,,,,,,,,,,,,,,
CC(C)(C1=CC=C(C=C1)OCC2CO2)C3=CC=C(C=C3)OCC4CO4,"Hexatran-100 Amine418 4-（氨甲基）-1，8-辛二胺 4-Aminomethyl-1,8-Octanediamine",NCCCC(CN)CCCCN,15.47,,,1572-55-0,24,132,1,35,107,567.8,31,60,237,130,140,,,,67.4,2283.4,4.9,15.9
CC(C)(C1=CC=C(C=C1)OCC2CO2)C3=CC=C(C=C3)OCC4CO4,MPMD 甲基戊二胺,NC(C)CCCCN,16.02,,,15520-10-2,2.6,174,1,15,108,595.5,30,72,243.5,50,125,,,,68.1,2260.1,8.9,24.2
CC(C)(C1=CC=C(C=C1)OCC2CO2)C3=CC=C(C=C3)OCC4CO4,"1,3-Pentanediamine（1,3-戊烷二胺 ）",CCC(N)CCN,14.1,,,589-37-7,1.9,190,1,12,110,582.1,36,80,244,43,136,,,,79,2810,5.24,14.2
CC(C)(C1=CC=C(C=C1)OCC2CO2)C3=CC=C(C=C3)OCC4CO4,1，5戊二胺（凯赛（乌苏）生物材料有限公司）,NCCCCCN,14.1,,,463-94-2,1.8,133,1,13,106,585.8,31,58,252,46,123,,,,66,2190,7.9,25
,1.5五二按 （三菱化学）,NCCCCCN,,,,,,,,,,,,,,,,,,,,,,
,,,,,,,,,,,,,,,,,,,,,,,,
,,,,,,,,,,,,,,,,,,,,,,,,
,,NC1C(CCCCC1)N,,,,,,,,,,,,,,,180,,,,,,,
,,,,,,,,,,,,,,,,,,,,,,,,
,,NC1C(CNCCC1)N,,,,,,,,,,,,,,,10,,,,,,,
,,1+1,,,,,,,,,,,,,,,160,170,,,,,10,-0.1
,,,,,,,,,,,,,,,,,180,,,,,,,
,,,,,,,,,,,,,,,,,,,,,,,,
,,1.5五二按 （三菱化学）,,,,,,,,,,,,,,,,,,,,,,